{
  "resourceType" : "Bundle",
  "meta" : {
    "profile" : ["https://fhir.saude.go.gov.br/r4/exame/StructureDefinition/hemograma"]
  },
  "identifier" : {
    "system" : "https://fhir.go.gov.br/sid/romulo-rocha",
    "value" : "ebc2f6dd-473e-43bb-b67a-0694f5b1e086"
  },
  "type" : "collection",
  "entry" : [{
    "fullUrl" : "urn:uuid:c47949a4-22eb-4f2a-8e7b-2f81c9729598",
    "resource" : {
      "resourceType" : "Observation",
      "id" : "exame-composto",
      "meta" : {
        "profile" : ["https://fhir.saude.go.gov.br/r4/core/StructureDefinition/exame-composto"]
      },
      "contained" : [{
        "resourceType" : "Specimen",
        "id" : "amostra",
        "type" : {
          "coding" : [{
            "system" : "http://terminology.hl7.org/CodeSystem/v2-0487",
            "code" : "BLD"
          }]
        },
        "collection" : {
          "collectedDateTime" : "2024-07-24T10:00:00-03:00"
        }
      }],
      "status" : "final",
      "category" : [{
        "coding" : [{
          "system" : "http://www.saude.gov.br/fhir/r4/CodeSystem/BRSubgrupoTabelaSUS",
          "code" : "0202"
        }]
      }],
      "code" : {
        "coding" : [{
          "system" : "http://loinc.org",
          "code" : "58410-2"
        }]
      },
      "subject" : {
        "identifier" : {
          "system" : "https://fhir.saude.go.gov.br/sid/cpf",
          "value" : "01234567891"
        }
      },
      "issued" : "2024-08-06T07:07:03-03:00",
      "performer" : [{
        "id" : "laboratorio",
        "identifier" : {
          "system" : "https://fhir.saude.go.gov.br/sid/cnes",
          "value" : "2337991"
        }
      },
      {
        "id" : "responsavelTecnico",
        "extension" : [{
          "extension" : [{
            "url" : "conselhoProfissional",
            "valueCode" : "69"
          },
          {
            "url" : "regiao",
            "valueCode" : "52"
          },
          {
            "url" : "inscricao",
            "valueString" : "1234"
          }],
          "url" : "https://fhir.saude.go.gov.br/r4/core/StructureDefinition/conselho-profissional"
        }],
        "identifier" : {
          "system" : "https://fhir.saude.go.gov.br/sid/cpf",
          "value" : "12345678900"
        }
      }],
      "specimen" : {
        "reference" : "#amostra"
      },
      "hasMember" : [{
        "reference" : "urn:uuid:45f8b159-1100-4daf-b2b9-c8a61e928400"
      },
      {
        "reference" : "urn:uuid:45f8b159-1100-4daf-b2b9-c8a61e928399"
      },
      {
        "reference" : "urn:uuid:9dd4e8a4-03e1-403c-ad4d-838213ed7b9c"
      },
      {
        "reference" : "urn:uuid:88a9fa75-07ff-432c-957a-cc15e00700d3"
      },
      {
        "reference" : "urn:uuid:b4f6b5c9-2bc1-45cb-b88f-fcb166fed669"
      },
      {
        "reference" : "urn:uuid:86648359-5622-41e5-b178-2fbfbb05e013"
      },
      {
        "reference" : "urn:uuid:ee15f01d-2526-4a77-8b77-9d2e7faf7c83"
      },
      {
        "reference" : "urn:uuid:9395cecd-c7b5-44a4-b24a-e97812bc1921"
      },
      {
        "reference" : "urn:uuid:65ba6227-401b-40e0-ab65-fab4862f2920"
      },
      {
        "reference" : "urn:uuid:ebc2f6dd-473e-43bb-b67a-0694f5b1e086"
      },
      {
        "reference" : "urn:uuid:92344ace-2d5c-4a82-a3f1-abe299add5de"
      },
      {
        "reference" : "urn:uuid:28de1ac5-6c7a-4807-9947-c8f67cdb0067"
      },
      {
        "reference" : "urn:uuid:e94456c6-5d05-482d-b269-d8f51f02c6fe"
      },
      {
        "reference" : "urn:uuid:17b867fe-f9dc-40d9-83c3-786ee9b00170"
      },
      {
        "reference" : "urn:uuid:430bca89-5bbe-4836-8026-026d01b606a7"
      },
      {
        "reference" : "urn:uuid:320dd8de-82d7-461f-8ea5-a30dd4767fc5"
      },
      {
        "reference" : "urn:uuid:6218953c-6e54-4fb6-9ac4-abcc69fbf183"
      },
      {
        "reference" : "urn:uuid:80bcc7d9-d0b6-41a0-a77a-9a0257f499f8"
      },
      {
        "reference" : "urn:uuid:8295d77e-476a-4a8d-978b-4d6dd40b11c9"
      },
      {
        "reference" : "urn:uuid:e2466318-f770-4235-8ef2-c7a54a6ae75c"
      },
      {
        "reference" : "urn:uuid:da66073e-1a58-4f31-b99a-d35ffb667eef"
      },
      {
        "reference" : "urn:uuid:aef388a5-33be-4c74-ba82-a4a27b180648"
      },
      {
        "reference" : "urn:uuid:9d979d2b-3bc5-4c12-83ea-786bb48586d3"
      },
      {
        "reference" : "urn:uuid:92dfeb37-1abb-430b-8288-74feff6e9c51"
      }]
    }
  },
  {
    "fullUrl" : "urn:uuid:45f8b159-1100-4daf-b2b9-c8a61e928400",
    "resource" : {
      "resourceType" : "Observation",
      "id" : "hemacias",
      "meta" : {
        "profile" : ["https://fhir.saude.go.gov.br/r4/core/StructureDefinition/exame-simples"]
      },
      "contained" : [{
        "resourceType" : "Specimen",
        "id" : "amostra",
        "type" : {
          "coding" : [{
            "system" : "http://terminology.hl7.org/CodeSystem/v2-0487",
            "code" : "BLD"
          }]
        },
        "collection" : {
          "collectedDateTime" : "2024-07-24T10:00:00-03:00"
        }
      }],
      "status" : "final",
      "category" : [{
        "coding" : [{
          "system" : "http://www.saude.gov.br/fhir/r4/CodeSystem/BRSubgrupoTabelaSUS",
          "code" : "0202"
        }]
      }],
      "code" : {
        "coding" : [{
          "system" : "http://loinc.org",
          "code" : "789-8"
        }]
      },
      "subject" : {
        "identifier" : {
          "system" : "https://fhir.saude.go.gov.br/sid/cpf",
          "value" : "01234567891"
        }
      },
      "issued" : "2024-08-02T11:41:00-03:00",
      "performer" : [{
        "id" : "laboratorio",
        "identifier" : {
          "system" : "https://fhir.saude.go.gov.br/sid/cnes",
          "value" : "2337991"
        }
      },
      {
        "id" : "responsavelTecnico",
        "extension" : [{
          "extension" : [{
            "url" : "conselhoProfissional",
            "valueCode" : "69"
          },
          {
            "url" : "regiao",
            "valueCode" : "52"
          },
          {
            "url" : "inscricao",
            "valueString" : "1234"
          }],
          "url" : "https://fhir.saude.go.gov.br/r4/core/StructureDefinition/conselho-profissional"
        }],
        "identifier" : {
          "system" : "https://fhir.saude.go.gov.br/sid/cpf",
          "value" : "12345678900"
        }
      },
      {
        "id" : "responsavelResultado",
        "extension" : [{
          "extension" : [{
            "url" : "conselhoProfissional",
            "valueCode" : "69"
          },
          {
            "url" : "regiao",
            "valueCode" : "52"
          },
          {
            "url" : "inscricao",
            "valueString" : "1234"
          }],
          "url" : "https://fhir.saude.go.gov.br/r4/core/StructureDefinition/conselho-profissional"
        }],
        "identifier" : {
          "system" : "https://fhir.saude.go.gov.br/sid/cpf",
          "value" : "00011111100"
        }
      }],
      "valueQuantity" : {
        "value" : 5.9,
        "system" : "http://unitsofmeasure.org",
        "code" : "10*12/L"
      },
      "method" : {
        "text" : "Automatizado – Cell-Dyn Ruby, Abbott e Microscopia"
      },
      "specimen" : {
        "reference" : "#amostra"
      },
      "referenceRange" : [{
        "low" : {
          "value" : 4.5,
          "system" : "http://unitsofmeasure.org",
          "code" : "10*12/L"
        },
        "high" : {
          "value" : 6,
          "system" : "http://unitsofmeasure.org",
          "code" : "10*12/L"
        },
        "type" : {
          "coding" : [{
            "system" : "http://terminology.hl7.org/CodeSystem/referencerange-meaning",
            "code" : "normal"
          }]
        }
      }]
    }
  },
  {
    "fullUrl" : "urn:uuid:45f8b159-1100-4daf-b2b9-c8a61e928399",
    "resource" : {
      "resourceType" : "Observation",
      "id" : "hemoglobina",
      "meta" : {
        "profile" : ["https://fhir.saude.go.gov.br/r4/core/StructureDefinition/exame-simples"]
      },
      "contained" : [{
        "resourceType" : "Specimen",
        "id" : "amostra",
        "type" : {
          "coding" : [{
            "system" : "http://terminology.hl7.org/CodeSystem/v2-0487",
            "code" : "BLD"
          }]
        },
        "collection" : {
          "collectedDateTime" : "2024-07-24T10:00:00-03:00"
        }
      }],
      "status" : "final",
      "category" : [{
        "coding" : [{
          "system" : "http://www.saude.gov.br/fhir/r4/CodeSystem/BRSubgrupoTabelaSUS",
          "code" : "0202"
        }]
      }],
      "code" : {
        "coding" : [{
          "system" : "http://loinc.org",
          "code" : "718-7"
        }]
      },
      "subject" : {
        "identifier" : {
          "system" : "https://fhir.saude.go.gov.br/sid/cpf",
          "value" : "01234567891"
        }
      },
      "issued" : "2024-08-02T11:41:00-03:00",
      "performer" : [{
        "id" : "laboratorio",
        "identifier" : {
          "system" : "https://fhir.saude.go.gov.br/sid/cnes",
          "value" : "2337991"
        }
      },
      {
        "id" : "responsavelTecnico",
        "extension" : [{
          "extension" : [{
            "url" : "conselhoProfissional",
            "valueCode" : "69"
          },
          {
            "url" : "regiao",
            "valueCode" : "52"
          },
          {
            "url" : "inscricao",
            "valueString" : "1234"
          }],
          "url" : "https://fhir.saude.go.gov.br/r4/core/StructureDefinition/conselho-profissional"
        }],
        "identifier" : {
          "system" : "https://fhir.saude.go.gov.br/sid/cpf",
          "value" : "12345678900"
        }
      },
      {
        "id" : "responsavelResultado",
        "extension" : [{
          "extension" : [{
            "url" : "conselhoProfissional",
            "valueCode" : "69"
          },
          {
            "url" : "regiao",
            "valueCode" : "52"
          },
          {
            "url" : "inscricao",
            "valueString" : "1234"
          }],
          "url" : "https://fhir.saude.go.gov.br/r4/core/StructureDefinition/conselho-profissional"
        }],
        "identifier" : {
          "system" : "https://fhir.saude.go.gov.br/sid/cpf",
          "value" : "00011111100"
        }
      }],
      "valueQuantity" : {
        "value" : 16.9,
        "system" : "http://unitsofmeasure.org",
        "code" : "g/dL"
      },
      "method" : {
        "text" : "Automatizado – Cell-Dyn Ruby, Abbott e Microscopia"
      },
      "specimen" : {
        "reference" : "#amostra"
      },
      "referenceRange" : [{
        "low" : {
          "value" : 13.5,
          "system" : "http://unitsofmeasure.org",
          "code" : "g/dL"
        },
        "high" : {
          "value" : 17.5,
          "system" : "http://unitsofmeasure.org",
          "code" : "g/dL"
        },
        "type" : {
          "coding" : [{
            "system" : "http://terminology.hl7.org/CodeSystem/referencerange-meaning",
            "code" : "normal"
          }]
        }
      }]
    }
  },
  {
    "fullUrl" : "urn:uuid:9dd4e8a4-03e1-403c-ad4d-838213ed7b9c",
    "resource" : {
      "resourceType" : "Observation",
      "id" : "hematocrito",
      "meta" : {
        "profile" : ["https://fhir.saude.go.gov.br/r4/core/StructureDefinition/exame-simples"]
      },
      "contained" : [{
        "resourceType" : "Specimen",
        "id" : "amostra",
        "type" : {
          "coding" : [{
            "system" : "http://terminology.hl7.org/CodeSystem/v2-0487",
            "code" : "BLD"
          }]
        },
        "collection" : {
          "collectedDateTime" : "2024-07-24T10:00:00-03:00"
        }
      }],
      "status" : "final",
      "category" : [{
        "coding" : [{
          "system" : "http://www.saude.gov.br/fhir/r4/CodeSystem/BRSubgrupoTabelaSUS",
          "code" : "0202"
        }]
      }],
      "code" : {
        "coding" : [{
          "system" : "http://loinc.org",
          "code" : "4544-3"
        }]
      },
      "subject" : {
        "identifier" : {
          "system" : "https://fhir.saude.go.gov.br/sid/cpf",
          "value" : "01234567891"
        }
      },
      "issued" : "2024-08-02T11:41:00-03:00",
      "performer" : [{
        "id" : "laboratorio",
        "identifier" : {
          "system" : "https://fhir.saude.go.gov.br/sid/cnes",
          "value" : "2337991"
        }
      },
      {
        "id" : "responsavelTecnico",
        "extension" : [{
          "extension" : [{
            "url" : "conselhoProfissional",
            "valueCode" : "69"
          },
          {
            "url" : "regiao",
            "valueCode" : "52"
          },
          {
            "url" : "inscricao",
            "valueString" : "1234"
          }],
          "url" : "https://fhir.saude.go.gov.br/r4/core/StructureDefinition/conselho-profissional"
        }],
        "identifier" : {
          "system" : "https://fhir.saude.go.gov.br/sid/cpf",
          "value" : "12345678900"
        }
      },
      {
        "id" : "responsavelResultado",
        "extension" : [{
          "extension" : [{
            "url" : "conselhoProfissional",
            "valueCode" : "69"
          },
          {
            "url" : "regiao",
            "valueCode" : "52"
          },
          {
            "url" : "inscricao",
            "valueString" : "1234"
          }],
          "url" : "https://fhir.saude.go.gov.br/r4/core/StructureDefinition/conselho-profissional"
        }],
        "identifier" : {
          "system" : "https://fhir.saude.go.gov.br/sid/cpf",
          "value" : "00011111100"
        }
      }],
      "valueQuantity" : {
        "value" : 52.2,
        "system" : "http://unitsofmeasure.org",
        "code" : "%"
      },
      "method" : {
        "text" : "Automatizado – Cell-Dyn Ruby, Abbott e Microscopia"
      },
      "specimen" : {
        "reference" : "#amostra"
      },
      "referenceRange" : [{
        "low" : {
          "value" : 41,
          "system" : "http://unitsofmeasure.org",
          "code" : "%"
        },
        "high" : {
          "value" : 50,
          "system" : "http://unitsofmeasure.org",
          "code" : "%"
        },
        "type" : {
          "coding" : [{
            "system" : "http://terminology.hl7.org/CodeSystem/referencerange-meaning",
            "code" : "normal"
          }]
        }
      }]
    }
  },
  {
    "fullUrl" : "urn:uuid:88a9fa75-07ff-432c-957a-cc15e00700d3",
    "resource" : {
      "resourceType" : "Observation",
      "id" : "vcm",
      "meta" : {
        "profile" : ["https://fhir.saude.go.gov.br/r4/core/StructureDefinition/exame-simples"]
      },
      "contained" : [{
        "resourceType" : "Specimen",
        "id" : "amostra",
        "type" : {
          "coding" : [{
            "system" : "http://terminology.hl7.org/CodeSystem/v2-0487",
            "code" : "BLD"
          }]
        },
        "collection" : {
          "collectedDateTime" : "2024-07-24T10:00:00-03:00"
        }
      }],
      "status" : "final",
      "category" : [{
        "coding" : [{
          "system" : "http://www.saude.gov.br/fhir/r4/CodeSystem/BRSubgrupoTabelaSUS",
          "code" : "0202"
        }]
      }],
      "code" : {
        "coding" : [{
          "system" : "http://loinc.org",
          "code" : "787-2"
        }]
      },
      "subject" : {
        "identifier" : {
          "system" : "https://fhir.saude.go.gov.br/sid/cpf",
          "value" : "01234567891"
        }
      },
      "issued" : "2024-08-02T11:41:00-03:00",
      "performer" : [{
        "id" : "laboratorio",
        "identifier" : {
          "system" : "https://fhir.saude.go.gov.br/sid/cnes",
          "value" : "2337991"
        }
      },
      {
        "id" : "responsavelTecnico",
        "extension" : [{
          "extension" : [{
            "url" : "conselhoProfissional",
            "valueCode" : "69"
          },
          {
            "url" : "regiao",
            "valueCode" : "52"
          },
          {
            "url" : "inscricao",
            "valueString" : "1234"
          }],
          "url" : "https://fhir.saude.go.gov.br/r4/core/StructureDefinition/conselho-profissional"
        }],
        "identifier" : {
          "system" : "https://fhir.saude.go.gov.br/sid/cpf",
          "value" : "12345678900"
        }
      },
      {
        "id" : "responsavelResultado",
        "extension" : [{
          "extension" : [{
            "url" : "conselhoProfissional",
            "valueCode" : "69"
          },
          {
            "url" : "regiao",
            "valueCode" : "52"
          },
          {
            "url" : "inscricao",
            "valueString" : "1234"
          }],
          "url" : "https://fhir.saude.go.gov.br/r4/core/StructureDefinition/conselho-profissional"
        }],
        "identifier" : {
          "system" : "https://fhir.saude.go.gov.br/sid/cpf",
          "value" : "00011111100"
        }
      }],
      "valueQuantity" : {
        "value" : 88,
        "system" : "http://unitsofmeasure.org",
        "code" : "fL"
      },
      "method" : {
        "text" : "Automatizado – Cell-Dyn Ruby, Abbott e Microscopia"
      },
      "specimen" : {
        "reference" : "#amostra"
      },
      "referenceRange" : [{
        "low" : {
          "value" : 80,
          "system" : "http://unitsofmeasure.org",
          "code" : "fL"
        },
        "high" : {
          "value" : 95,
          "system" : "http://unitsofmeasure.org",
          "code" : "fL"
        },
        "type" : {
          "coding" : [{
            "system" : "http://terminology.hl7.org/CodeSystem/referencerange-meaning",
            "code" : "normal"
          }]
        }
      }]
    }
  },
  {
    "fullUrl" : "urn:uuid:b4f6b5c9-2bc1-45cb-b88f-fcb166fed669",
    "resource" : {
      "resourceType" : "Observation",
      "id" : "hcm",
      "meta" : {
        "profile" : ["https://fhir.saude.go.gov.br/r4/core/StructureDefinition/exame-simples"]
      },
      "contained" : [{
        "resourceType" : "Specimen",
        "id" : "amostra",
        "type" : {
          "coding" : [{
            "system" : "http://terminology.hl7.org/CodeSystem/v2-0487",
            "code" : "BLD"
          }]
        },
        "collection" : {
          "collectedDateTime" : "2024-07-24T10:00:00-03:00"
        }
      }],
      "status" : "final",
      "category" : [{
        "coding" : [{
          "system" : "http://www.saude.gov.br/fhir/r4/CodeSystem/BRSubgrupoTabelaSUS",
          "code" : "0202"
        }]
      }],
      "code" : {
        "coding" : [{
          "system" : "http://loinc.org",
          "code" : "785-6"
        }]
      },
      "subject" : {
        "identifier" : {
          "system" : "https://fhir.saude.go.gov.br/sid/cpf",
          "value" : "01234567891"
        }
      },
      "issued" : "2024-08-02T11:41:00-03:00",
      "performer" : [{
        "id" : "laboratorio",
        "identifier" : {
          "system" : "https://fhir.saude.go.gov.br/sid/cnes",
          "value" : "2337991"
        }
      },
      {
        "id" : "responsavelTecnico",
        "extension" : [{
          "extension" : [{
            "url" : "conselhoProfissional",
            "valueCode" : "69"
          },
          {
            "url" : "regiao",
            "valueCode" : "52"
          },
          {
            "url" : "inscricao",
            "valueString" : "1234"
          }],
          "url" : "https://fhir.saude.go.gov.br/r4/core/StructureDefinition/conselho-profissional"
        }],
        "identifier" : {
          "system" : "https://fhir.saude.go.gov.br/sid/cpf",
          "value" : "12345678900"
        }
      },
      {
        "id" : "responsavelResultado",
        "extension" : [{
          "extension" : [{
            "url" : "conselhoProfissional",
            "valueCode" : "69"
          },
          {
            "url" : "regiao",
            "valueCode" : "52"
          },
          {
            "url" : "inscricao",
            "valueString" : "1234"
          }],
          "url" : "https://fhir.saude.go.gov.br/r4/core/StructureDefinition/conselho-profissional"
        }],
        "identifier" : {
          "system" : "https://fhir.saude.go.gov.br/sid/cpf",
          "value" : "00011111100"
        }
      }],
      "valueQuantity" : {
        "value" : 28.4,
        "system" : "http://unitsofmeasure.org",
        "code" : "pg"
      },
      "method" : {
        "text" : "Automatizado – Cell-Dyn Ruby, Abbott e Microscopia"
      },
      "specimen" : {
        "reference" : "#amostra"
      },
      "referenceRange" : [{
        "low" : {
          "value" : 26,
          "system" : "http://unitsofmeasure.org",
          "code" : "pg"
        },
        "high" : {
          "value" : 32,
          "system" : "http://unitsofmeasure.org",
          "code" : "pg"
        },
        "type" : {
          "coding" : [{
            "system" : "http://terminology.hl7.org/CodeSystem/referencerange-meaning",
            "code" : "normal"
          }]
        }
      }]
    }
  },
  {
    "fullUrl" : "urn:uuid:86648359-5622-41e5-b178-2fbfbb05e013",
    "resource" : {
      "resourceType" : "Observation",
      "id" : "chcm",
      "meta" : {
        "profile" : ["https://fhir.saude.go.gov.br/r4/core/StructureDefinition/exame-simples"]
      },
      "contained" : [{
        "resourceType" : "Specimen",
        "id" : "amostra",
        "type" : {
          "coding" : [{
            "system" : "http://terminology.hl7.org/CodeSystem/v2-0487",
            "code" : "BLD"
          }]
        },
        "collection" : {
          "collectedDateTime" : "2024-07-24T10:00:00-03:00"
        }
      }],
      "status" : "final",
      "category" : [{
        "coding" : [{
          "system" : "http://www.saude.gov.br/fhir/r4/CodeSystem/BRSubgrupoTabelaSUS",
          "code" : "0202"
        }]
      }],
      "code" : {
        "coding" : [{
          "system" : "http://loinc.org",
          "code" : "786-4"
        }]
      },
      "subject" : {
        "identifier" : {
          "system" : "https://fhir.saude.go.gov.br/sid/cpf",
          "value" : "01234567891"
        }
      },
      "issued" : "2024-08-02T11:41:00-03:00",
      "performer" : [{
        "id" : "laboratorio",
        "identifier" : {
          "system" : "https://fhir.saude.go.gov.br/sid/cnes",
          "value" : "2337991"
        }
      },
      {
        "id" : "responsavelTecnico",
        "extension" : [{
          "extension" : [{
            "url" : "conselhoProfissional",
            "valueCode" : "69"
          },
          {
            "url" : "regiao",
            "valueCode" : "52"
          },
          {
            "url" : "inscricao",
            "valueString" : "1234"
          }],
          "url" : "https://fhir.saude.go.gov.br/r4/core/StructureDefinition/conselho-profissional"
        }],
        "identifier" : {
          "system" : "https://fhir.saude.go.gov.br/sid/cpf",
          "value" : "12345678900"
        }
      },
      {
        "id" : "responsavelResultado",
        "extension" : [{
          "extension" : [{
            "url" : "conselhoProfissional",
            "valueCode" : "69"
          },
          {
            "url" : "regiao",
            "valueCode" : "52"
          },
          {
            "url" : "inscricao",
            "valueString" : "1234"
          }],
          "url" : "https://fhir.saude.go.gov.br/r4/core/StructureDefinition/conselho-profissional"
        }],
        "identifier" : {
          "system" : "https://fhir.saude.go.gov.br/sid/cpf",
          "value" : "00011111100"
        }
      }],
      "valueQuantity" : {
        "value" : 32.3,
        "system" : "http://unitsofmeasure.org",
        "code" : "g/dL"
      },
      "method" : {
        "text" : "Automatizado – Cell-Dyn Ruby, Abbott e Microscopia"
      },
      "specimen" : {
        "reference" : "#amostra"
      },
      "referenceRange" : [{
        "low" : {
          "value" : 32,
          "system" : "http://unitsofmeasure.org",
          "code" : "g/dL"
        },
        "high" : {
          "value" : 36,
          "system" : "http://unitsofmeasure.org",
          "code" : "g/dL"
        },
        "type" : {
          "coding" : [{
            "system" : "http://terminology.hl7.org/CodeSystem/referencerange-meaning",
            "code" : "normal"
          }]
        }
      }]
    }
  },
  {
    "fullUrl" : "urn:uuid:ee15f01d-2526-4a77-8b77-9d2e7faf7c83",
    "resource" : {
      "resourceType" : "Observation",
      "id" : "rdw",
      "meta" : {
        "profile" : ["https://fhir.saude.go.gov.br/r4/core/StructureDefinition/exame-simples"]
      },
      "contained" : [{
        "resourceType" : "Specimen",
        "id" : "amostra",
        "type" : {
          "coding" : [{
            "system" : "http://terminology.hl7.org/CodeSystem/v2-0487",
            "code" : "BLD"
          }]
        },
        "collection" : {
          "collectedDateTime" : "2024-07-24T10:00:00-03:00"
        }
      }],
      "status" : "final",
      "category" : [{
        "coding" : [{
          "system" : "http://www.saude.gov.br/fhir/r4/CodeSystem/BRSubgrupoTabelaSUS",
          "code" : "0202"
        }]
      }],
      "code" : {
        "coding" : [{
          "system" : "http://loinc.org",
          "code" : "788-0"
        }]
      },
      "subject" : {
        "identifier" : {
          "system" : "https://fhir.saude.go.gov.br/sid/cpf",
          "value" : "01234567891"
        }
      },
      "issued" : "2024-08-02T11:41:00-03:00",
      "performer" : [{
        "id" : "laboratorio",
        "identifier" : {
          "system" : "https://fhir.saude.go.gov.br/sid/cnes",
          "value" : "2337991"
        }
      },
      {
        "id" : "responsavelTecnico",
        "extension" : [{
          "extension" : [{
            "url" : "conselhoProfissional",
            "valueCode" : "69"
          },
          {
            "url" : "regiao",
            "valueCode" : "52"
          },
          {
            "url" : "inscricao",
            "valueString" : "1234"
          }],
          "url" : "https://fhir.saude.go.gov.br/r4/core/StructureDefinition/conselho-profissional"
        }],
        "identifier" : {
          "system" : "https://fhir.saude.go.gov.br/sid/cpf",
          "value" : "12345678900"
        }
      },
      {
        "id" : "responsavelResultado",
        "extension" : [{
          "extension" : [{
            "url" : "conselhoProfissional",
            "valueCode" : "69"
          },
          {
            "url" : "regiao",
            "valueCode" : "52"
          },
          {
            "url" : "inscricao",
            "valueString" : "1234"
          }],
          "url" : "https://fhir.saude.go.gov.br/r4/core/StructureDefinition/conselho-profissional"
        }],
        "identifier" : {
          "system" : "https://fhir.saude.go.gov.br/sid/cpf",
          "value" : "00011111100"
        }
      }],
      "valueQuantity" : {
        "value" : 13.4,
        "system" : "http://unitsofmeasure.org",
        "code" : "%"
      },
      "method" : {
        "text" : "Automatizado – Cell-Dyn Ruby, Abbott e Microscopia"
      },
      "specimen" : {
        "reference" : "#amostra"
      },
      "referenceRange" : [{
        "low" : {
          "value" : 11.6,
          "system" : "http://unitsofmeasure.org",
          "code" : "%"
        },
        "high" : {
          "value" : 14.8,
          "system" : "http://unitsofmeasure.org",
          "code" : "%"
        },
        "type" : {
          "coding" : [{
            "system" : "http://terminology.hl7.org/CodeSystem/referencerange-meaning",
            "code" : "normal"
          }]
        }
      }]
    }
  },
  {
    "fullUrl" : "urn:uuid:9395cecd-c7b5-44a4-b24a-e97812bc1921",
    "resource" : {
      "resourceType" : "Observation",
      "id" : "leucocitos",
      "meta" : {
        "profile" : ["https://fhir.saude.go.gov.br/r4/core/StructureDefinition/exame-simples"]
      },
      "contained" : [{
        "resourceType" : "Specimen",
        "id" : "amostra",
        "type" : {
          "coding" : [{
            "system" : "http://terminology.hl7.org/CodeSystem/v2-0487",
            "code" : "BLD"
          }]
        },
        "collection" : {
          "collectedDateTime" : "2024-07-24T10:00:00-03:00"
        }
      }],
      "status" : "final",
      "category" : [{
        "coding" : [{
          "system" : "http://www.saude.gov.br/fhir/r4/CodeSystem/BRSubgrupoTabelaSUS",
          "code" : "0202"
        }]
      }],
      "code" : {
        "coding" : [{
          "system" : "http://loinc.org",
          "code" : "6690-2"
        }]
      },
      "subject" : {
        "identifier" : {
          "system" : "https://fhir.saude.go.gov.br/sid/cpf",
          "value" : "01234567891"
        }
      },
      "issued" : "2024-08-02T11:41:00-03:00",
      "performer" : [{
        "id" : "laboratorio",
        "identifier" : {
          "system" : "https://fhir.saude.go.gov.br/sid/cnes",
          "value" : "2337991"
        }
      },
      {
        "id" : "responsavelTecnico",
        "extension" : [{
          "extension" : [{
            "url" : "conselhoProfissional",
            "valueCode" : "69"
          },
          {
            "url" : "regiao",
            "valueCode" : "52"
          },
          {
            "url" : "inscricao",
            "valueString" : "1234"
          }],
          "url" : "https://fhir.saude.go.gov.br/r4/core/StructureDefinition/conselho-profissional"
        }],
        "identifier" : {
          "system" : "https://fhir.saude.go.gov.br/sid/cpf",
          "value" : "12345678900"
        }
      },
      {
        "id" : "responsavelResultado",
        "extension" : [{
          "extension" : [{
            "url" : "conselhoProfissional",
            "valueCode" : "69"
          },
          {
            "url" : "regiao",
            "valueCode" : "52"
          },
          {
            "url" : "inscricao",
            "valueString" : "1234"
          }],
          "url" : "https://fhir.saude.go.gov.br/r4/core/StructureDefinition/conselho-profissional"
        }],
        "identifier" : {
          "system" : "https://fhir.saude.go.gov.br/sid/cpf",
          "value" : "00011111100"
        }
      }],
      "valueQuantity" : {
        "value" : 5.917,
        "system" : "http://unitsofmeasure.org",
        "code" : "%"
      },
      "method" : {
        "text" : "Automatizado – Cell-Dyn Ruby, Abbott e Microscopia"
      },
      "specimen" : {
        "reference" : "#amostra"
      },
      "referenceRange" : [{
        "low" : {
          "value" : 3.5,
          "system" : "http://unitsofmeasure.org",
          "code" : "%"
        },
        "high" : {
          "value" : 11,
          "system" : "http://unitsofmeasure.org",
          "code" : "%"
        },
        "type" : {
          "coding" : [{
            "system" : "http://terminology.hl7.org/CodeSystem/referencerange-meaning",
            "code" : "normal"
          }]
        }
      }]
    }
  },
  {
    "fullUrl" : "urn:uuid:65ba6227-401b-40e0-ab65-fab4862f2920",
    "resource" : {
      "resourceType" : "Observation",
      "id" : "promielocitos",
      "meta" : {
        "profile" : ["https://fhir.saude.go.gov.br/r4/core/StructureDefinition/exame-simples"]
      },
      "contained" : [{
        "resourceType" : "Specimen",
        "id" : "amostra",
        "type" : {
          "coding" : [{
            "system" : "http://terminology.hl7.org/CodeSystem/v2-0487",
            "code" : "BLD"
          }]
        },
        "collection" : {
          "collectedDateTime" : "2024-07-24T10:00:00-03:00"
        }
      }],
      "status" : "final",
      "category" : [{
        "coding" : [{
          "system" : "http://www.saude.gov.br/fhir/r4/CodeSystem/BRSubgrupoTabelaSUS",
          "code" : "0202"
        }]
      }],
      "code" : {
        "coding" : [{
          "system" : "http://loinc.org",
          "code" : "781-5"
        }]
      },
      "subject" : {
        "identifier" : {
          "system" : "https://fhir.saude.go.gov.br/sid/cpf",
          "value" : "01234567891"
        }
      },
      "issued" : "2024-08-02T11:41:00-03:00",
      "performer" : [{
        "id" : "laboratorio",
        "identifier" : {
          "system" : "https://fhir.saude.go.gov.br/sid/cnes",
          "value" : "2337991"
        }
      },
      {
        "id" : "responsavelTecnico",
        "extension" : [{
          "extension" : [{
            "url" : "conselhoProfissional",
            "valueCode" : "69"
          },
          {
            "url" : "regiao",
            "valueCode" : "52"
          },
          {
            "url" : "inscricao",
            "valueString" : "1234"
          }],
          "url" : "https://fhir.saude.go.gov.br/r4/core/StructureDefinition/conselho-profissional"
        }],
        "identifier" : {
          "system" : "https://fhir.saude.go.gov.br/sid/cpf",
          "value" : "12345678900"
        }
      },
      {
        "id" : "responsavelResultado",
        "extension" : [{
          "extension" : [{
            "url" : "conselhoProfissional",
            "valueCode" : "69"
          },
          {
            "url" : "regiao",
            "valueCode" : "52"
          },
          {
            "url" : "inscricao",
            "valueString" : "1234"
          }],
          "url" : "https://fhir.saude.go.gov.br/r4/core/StructureDefinition/conselho-profissional"
        }],
        "identifier" : {
          "system" : "https://fhir.saude.go.gov.br/sid/cpf",
          "value" : "00011111100"
        }
      }],
      "valueQuantity" : {
        "value" : 0,
        "system" : "http://unitsofmeasure.org",
        "code" : "/uL"
      },
      "method" : {
        "text" : "Automatizado – Cell-Dyn Ruby, Abbott e Microscopia"
      },
      "specimen" : {
        "reference" : "#amostra"
      },
      "referenceRange" : [{
        "low" : {
          "value" : 0,
          "system" : "http://unitsofmeasure.org",
          "code" : "/uL"
        },
        "high" : {
          "value" : 0,
          "system" : "http://unitsofmeasure.org",
          "code" : "/uL"
        },
        "type" : {
          "coding" : [{
            "system" : "http://terminology.hl7.org/CodeSystem/referencerange-meaning",
            "code" : "normal"
          }]
        }
      }]
    }
  },
  {
    "fullUrl" : "urn:uuid:ebc2f6dd-473e-43bb-b67a-0694f5b1e086",
    "resource" : {
      "resourceType" : "Observation",
      "id" : "mielocitos",
      "meta" : {
        "profile" : ["https://fhir.saude.go.gov.br/r4/core/StructureDefinition/exame-simples"]
      },
      "contained" : [{
        "resourceType" : "Specimen",
        "id" : "amostra",
        "type" : {
          "coding" : [{
            "system" : "http://terminology.hl7.org/CodeSystem/v2-0487",
            "code" : "BLD"
          }]
        },
        "collection" : {
          "collectedDateTime" : "2024-07-24T10:00:00-03:00"
        }
      }],
      "status" : "final",
      "category" : [{
        "coding" : [{
          "system" : "http://www.saude.gov.br/fhir/r4/CodeSystem/BRSubgrupoTabelaSUS",
          "code" : "0202"
        }]
      }],
      "code" : {
        "coding" : [{
          "system" : "http://loinc.org",
          "code" : "748-4"
        }]
      },
      "subject" : {
        "identifier" : {
          "system" : "https://fhir.saude.go.gov.br/sid/cpf",
          "value" : "01234567891"
        }
      },
      "issued" : "2024-08-02T11:41:00-03:00",
      "performer" : [{
        "id" : "laboratorio",
        "identifier" : {
          "system" : "https://fhir.saude.go.gov.br/sid/cnes",
          "value" : "2337991"
        }
      },
      {
        "id" : "responsavelTecnico",
        "extension" : [{
          "extension" : [{
            "url" : "conselhoProfissional",
            "valueCode" : "69"
          },
          {
            "url" : "regiao",
            "valueCode" : "52"
          },
          {
            "url" : "inscricao",
            "valueString" : "1234"
          }],
          "url" : "https://fhir.saude.go.gov.br/r4/core/StructureDefinition/conselho-profissional"
        }],
        "identifier" : {
          "system" : "https://fhir.saude.go.gov.br/sid/cpf",
          "value" : "12345678900"
        }
      },
      {
        "id" : "responsavelResultado",
        "extension" : [{
          "extension" : [{
            "url" : "conselhoProfissional",
            "valueCode" : "69"
          },
          {
            "url" : "regiao",
            "valueCode" : "52"
          },
          {
            "url" : "inscricao",
            "valueString" : "1234"
          }],
          "url" : "https://fhir.saude.go.gov.br/r4/core/StructureDefinition/conselho-profissional"
        }],
        "identifier" : {
          "system" : "https://fhir.saude.go.gov.br/sid/cpf",
          "value" : "00011111100"
        }
      }],
      "valueQuantity" : {
        "value" : 0,
        "system" : "http://unitsofmeasure.org",
        "code" : "/uL"
      },
      "method" : {
        "text" : "Automatizado – Cell-Dyn Ruby, Abbott e Microscopia"
      },
      "specimen" : {
        "reference" : "#amostra"
      },
      "referenceRange" : [{
        "low" : {
          "value" : 0,
          "system" : "http://unitsofmeasure.org",
          "code" : "/uL"
        },
        "high" : {
          "value" : 0,
          "system" : "http://unitsofmeasure.org",
          "code" : "/uL"
        },
        "type" : {
          "coding" : [{
            "system" : "http://terminology.hl7.org/CodeSystem/referencerange-meaning",
            "code" : "normal"
          }]
        }
      }]
    }
  },
  {
    "fullUrl" : "urn:uuid:92344ace-2d5c-4a82-a3f1-abe299add5de",
    "resource" : {
      "resourceType" : "Observation",
      "id" : "metamielocitos",
      "meta" : {
        "profile" : ["https://fhir.saude.go.gov.br/r4/core/StructureDefinition/exame-simples"]
      },
      "contained" : [{
        "resourceType" : "Specimen",
        "id" : "amostra",
        "type" : {
          "coding" : [{
            "system" : "http://terminology.hl7.org/CodeSystem/v2-0487",
            "code" : "BLD"
          }]
        },
        "collection" : {
          "collectedDateTime" : "2024-07-24T10:00:00-03:00"
        }
      }],
      "status" : "final",
      "category" : [{
        "coding" : [{
          "system" : "http://www.saude.gov.br/fhir/r4/CodeSystem/BRSubgrupoTabelaSUS",
          "code" : "0202"
        }]
      }],
      "code" : {
        "coding" : [{
          "system" : "http://loinc.org",
          "code" : "739-3"
        }]
      },
      "subject" : {
        "identifier" : {
          "system" : "https://fhir.saude.go.gov.br/sid/cpf",
          "value" : "01234567891"
        }
      },
      "issued" : "2024-08-02T11:41:00-03:00",
      "performer" : [{
        "id" : "laboratorio",
        "identifier" : {
          "system" : "https://fhir.saude.go.gov.br/sid/cnes",
          "value" : "2337991"
        }
      },
      {
        "id" : "responsavelTecnico",
        "extension" : [{
          "extension" : [{
            "url" : "conselhoProfissional",
            "valueCode" : "69"
          },
          {
            "url" : "regiao",
            "valueCode" : "52"
          },
          {
            "url" : "inscricao",
            "valueString" : "1234"
          }],
          "url" : "https://fhir.saude.go.gov.br/r4/core/StructureDefinition/conselho-profissional"
        }],
        "identifier" : {
          "system" : "https://fhir.saude.go.gov.br/sid/cpf",
          "value" : "12345678900"
        }
      },
      {
        "id" : "responsavelResultado",
        "extension" : [{
          "extension" : [{
            "url" : "conselhoProfissional",
            "valueCode" : "69"
          },
          {
            "url" : "regiao",
            "valueCode" : "52"
          },
          {
            "url" : "inscricao",
            "valueString" : "1234"
          }],
          "url" : "https://fhir.saude.go.gov.br/r4/core/StructureDefinition/conselho-profissional"
        }],
        "identifier" : {
          "system" : "https://fhir.saude.go.gov.br/sid/cpf",
          "value" : "00011111100"
        }
      }],
      "valueQuantity" : {
        "value" : 0,
        "system" : "http://unitsofmeasure.org",
        "code" : "/uL"
      },
      "method" : {
        "text" : "Automatizado – Cell-Dyn Ruby, Abbott e Microscopia"
      },
      "specimen" : {
        "reference" : "#amostra"
      },
      "referenceRange" : [{
        "low" : {
          "value" : 0,
          "system" : "http://unitsofmeasure.org",
          "code" : "/uL"
        },
        "high" : {
          "value" : 0,
          "system" : "http://unitsofmeasure.org",
          "code" : "/uL"
        },
        "type" : {
          "coding" : [{
            "system" : "http://terminology.hl7.org/CodeSystem/referencerange-meaning",
            "code" : "normal"
          }]
        }
      }]
    }
  },
  {
    "fullUrl" : "urn:uuid:28de1ac5-6c7a-4807-9947-c8f67cdb0067",
    "resource" : {
      "resourceType" : "Observation",
      "id" : "bastonetes",
      "meta" : {
        "profile" : ["https://fhir.saude.go.gov.br/r4/core/StructureDefinition/exame-simples"]
      },
      "contained" : [{
        "resourceType" : "Specimen",
        "id" : "amostra",
        "type" : {
          "coding" : [{
            "system" : "http://terminology.hl7.org/CodeSystem/v2-0487",
            "code" : "BLD"
          }]
        },
        "collection" : {
          "collectedDateTime" : "2024-07-24T10:00:00-03:00"
        }
      }],
      "status" : "final",
      "category" : [{
        "coding" : [{
          "system" : "http://www.saude.gov.br/fhir/r4/CodeSystem/BRSubgrupoTabelaSUS",
          "code" : "0202"
        }]
      }],
      "code" : {
        "coding" : [{
          "system" : "http://loinc.org",
          "code" : "763-3"
        }]
      },
      "subject" : {
        "identifier" : {
          "system" : "https://fhir.saude.go.gov.br/sid/cpf",
          "value" : "01234567891"
        }
      },
      "issued" : "2024-08-02T11:41:00-03:00",
      "performer" : [{
        "id" : "laboratorio",
        "identifier" : {
          "system" : "https://fhir.saude.go.gov.br/sid/cnes",
          "value" : "2337991"
        }
      },
      {
        "id" : "responsavelTecnico",
        "extension" : [{
          "extension" : [{
            "url" : "conselhoProfissional",
            "valueCode" : "69"
          },
          {
            "url" : "regiao",
            "valueCode" : "52"
          },
          {
            "url" : "inscricao",
            "valueString" : "1234"
          }],
          "url" : "https://fhir.saude.go.gov.br/r4/core/StructureDefinition/conselho-profissional"
        }],
        "identifier" : {
          "system" : "https://fhir.saude.go.gov.br/sid/cpf",
          "value" : "12345678900"
        }
      },
      {
        "id" : "responsavelResultado",
        "extension" : [{
          "extension" : [{
            "url" : "conselhoProfissional",
            "valueCode" : "69"
          },
          {
            "url" : "regiao",
            "valueCode" : "52"
          },
          {
            "url" : "inscricao",
            "valueString" : "1234"
          }],
          "url" : "https://fhir.saude.go.gov.br/r4/core/StructureDefinition/conselho-profissional"
        }],
        "identifier" : {
          "system" : "https://fhir.saude.go.gov.br/sid/cpf",
          "value" : "00011111100"
        }
      }],
      "valueQuantity" : {
        "value" : 59,
        "system" : "http://unitsofmeasure.org",
        "code" : "/uL"
      },
      "method" : {
        "text" : "Automatizado – Cell-Dyn Ruby, Abbott e Microscopia"
      },
      "specimen" : {
        "reference" : "#amostra"
      },
      "referenceRange" : [{
        "low" : {
          "value" : 0,
          "system" : "http://unitsofmeasure.org",
          "code" : "/uL"
        },
        "high" : {
          "value" : 500,
          "system" : "http://unitsofmeasure.org",
          "code" : "/uL"
        },
        "type" : {
          "coding" : [{
            "system" : "http://terminology.hl7.org/CodeSystem/referencerange-meaning",
            "code" : "normal"
          }]
        }
      }]
    }
  },
  {
    "fullUrl" : "urn:uuid:e94456c6-5d05-482d-b269-d8f51f02c6fe",
    "resource" : {
      "resourceType" : "Observation",
      "id" : "segmentados",
      "meta" : {
        "profile" : ["https://fhir.saude.go.gov.br/r4/core/StructureDefinition/exame-simples"]
      },
      "contained" : [{
        "resourceType" : "Specimen",
        "id" : "amostra",
        "type" : {
          "coding" : [{
            "system" : "http://terminology.hl7.org/CodeSystem/v2-0487",
            "code" : "BLD"
          }]
        },
        "collection" : {
          "collectedDateTime" : "2024-07-24T10:00:00-03:00"
        }
      }],
      "status" : "final",
      "category" : [{
        "coding" : [{
          "system" : "http://www.saude.gov.br/fhir/r4/CodeSystem/BRSubgrupoTabelaSUS",
          "code" : "0202"
        }]
      }],
      "code" : {
        "coding" : [{
          "system" : "http://loinc.org",
          "code" : "768-2"
        }]
      },
      "subject" : {
        "identifier" : {
          "system" : "https://fhir.saude.go.gov.br/sid/cpf",
          "value" : "01234567891"
        }
      },
      "issued" : "2024-08-02T11:41:00-03:00",
      "performer" : [{
        "id" : "laboratorio",
        "identifier" : {
          "system" : "https://fhir.saude.go.gov.br/sid/cnes",
          "value" : "2337991"
        }
      },
      {
        "id" : "responsavelTecnico",
        "extension" : [{
          "extension" : [{
            "url" : "conselhoProfissional",
            "valueCode" : "69"
          },
          {
            "url" : "regiao",
            "valueCode" : "52"
          },
          {
            "url" : "inscricao",
            "valueString" : "1234"
          }],
          "url" : "https://fhir.saude.go.gov.br/r4/core/StructureDefinition/conselho-profissional"
        }],
        "identifier" : {
          "system" : "https://fhir.saude.go.gov.br/sid/cpf",
          "value" : "12345678900"
        }
      },
      {
        "id" : "responsavelResultado",
        "extension" : [{
          "extension" : [{
            "url" : "conselhoProfissional",
            "valueCode" : "69"
          },
          {
            "url" : "regiao",
            "valueCode" : "52"
          },
          {
            "url" : "inscricao",
            "valueString" : "1234"
          }],
          "url" : "https://fhir.saude.go.gov.br/r4/core/StructureDefinition/conselho-profissional"
        }],
        "identifier" : {
          "system" : "https://fhir.saude.go.gov.br/sid/cpf",
          "value" : "00011111100"
        }
      }],
      "valueQuantity" : {
        "value" : 3905,
        "system" : "http://unitsofmeasure.org",
        "code" : "/uL"
      },
      "method" : {
        "text" : "Automatizado – Cell-Dyn Ruby, Abbott e Microscopia"
      },
      "specimen" : {
        "reference" : "#amostra"
      },
      "referenceRange" : [{
        "low" : {
          "value" : 1500,
          "system" : "http://unitsofmeasure.org",
          "code" : "/uL"
        },
        "high" : {
          "value" : 7000,
          "system" : "http://unitsofmeasure.org",
          "code" : "/uL"
        },
        "type" : {
          "coding" : [{
            "system" : "http://terminology.hl7.org/CodeSystem/referencerange-meaning",
            "code" : "normal"
          }]
        }
      }]
    }
  },
  {
    "fullUrl" : "urn:uuid:17b867fe-f9dc-40d9-83c3-786ee9b00170",
    "resource" : {
      "resourceType" : "Observation",
      "id" : "monocitos",
      "meta" : {
        "profile" : ["https://fhir.saude.go.gov.br/r4/core/StructureDefinition/exame-simples"]
      },
      "contained" : [{
        "resourceType" : "Specimen",
        "id" : "amostra",
        "type" : {
          "coding" : [{
            "system" : "http://terminology.hl7.org/CodeSystem/v2-0487",
            "code" : "BLD"
          }]
        },
        "collection" : {
          "collectedDateTime" : "2024-07-24T10:00:00-03:00"
        }
      }],
      "status" : "final",
      "category" : [{
        "coding" : [{
          "system" : "http://www.saude.gov.br/fhir/r4/CodeSystem/BRSubgrupoTabelaSUS",
          "code" : "0202"
        }]
      }],
      "code" : {
        "coding" : [{
          "system" : "http://loinc.org",
          "code" : "742-7"
        }]
      },
      "subject" : {
        "identifier" : {
          "system" : "https://fhir.saude.go.gov.br/sid/cpf",
          "value" : "01234567891"
        }
      },
      "issued" : "2024-08-02T11:41:00-03:00",
      "performer" : [{
        "id" : "laboratorio",
        "identifier" : {
          "system" : "https://fhir.saude.go.gov.br/sid/cnes",
          "value" : "2337991"
        }
      },
      {
        "id" : "responsavelTecnico",
        "extension" : [{
          "extension" : [{
            "url" : "conselhoProfissional",
            "valueCode" : "69"
          },
          {
            "url" : "regiao",
            "valueCode" : "52"
          },
          {
            "url" : "inscricao",
            "valueString" : "1234"
          }],
          "url" : "https://fhir.saude.go.gov.br/r4/core/StructureDefinition/conselho-profissional"
        }],
        "identifier" : {
          "system" : "https://fhir.saude.go.gov.br/sid/cpf",
          "value" : "12345678900"
        }
      },
      {
        "id" : "responsavelResultado",
        "extension" : [{
          "extension" : [{
            "url" : "conselhoProfissional",
            "valueCode" : "69"
          },
          {
            "url" : "regiao",
            "valueCode" : "52"
          },
          {
            "url" : "inscricao",
            "valueString" : "1234"
          }],
          "url" : "https://fhir.saude.go.gov.br/r4/core/StructureDefinition/conselho-profissional"
        }],
        "identifier" : {
          "system" : "https://fhir.saude.go.gov.br/sid/cpf",
          "value" : "00011111100"
        }
      }],
      "valueQuantity" : {
        "value" : 592,
        "system" : "http://unitsofmeasure.org",
        "code" : "/uL"
      },
      "method" : {
        "text" : "Automatizado – Cell-Dyn Ruby, Abbott e Microscopia"
      },
      "specimen" : {
        "reference" : "#amostra"
      },
      "referenceRange" : [{
        "low" : {
          "value" : 100,
          "system" : "http://unitsofmeasure.org",
          "code" : "/uL"
        },
        "high" : {
          "value" : 1000,
          "system" : "http://unitsofmeasure.org",
          "code" : "/uL"
        },
        "type" : {
          "coding" : [{
            "system" : "http://terminology.hl7.org/CodeSystem/referencerange-meaning",
            "code" : "normal"
          }]
        }
      }]
    }
  },
  {
    "fullUrl" : "urn:uuid:430bca89-5bbe-4836-8026-026d01b606a7",
    "resource" : {
      "resourceType" : "Observation",
      "id" : "eosinofilos",
      "meta" : {
        "profile" : ["https://fhir.saude.go.gov.br/r4/core/StructureDefinition/exame-simples"]
      },
      "contained" : [{
        "resourceType" : "Specimen",
        "id" : "amostra",
        "type" : {
          "coding" : [{
            "system" : "http://terminology.hl7.org/CodeSystem/v2-0487",
            "code" : "BLD"
          }]
        },
        "collection" : {
          "collectedDateTime" : "2024-07-24T10:00:00-03:00"
        }
      }],
      "status" : "final",
      "category" : [{
        "coding" : [{
          "system" : "http://www.saude.gov.br/fhir/r4/CodeSystem/BRSubgrupoTabelaSUS",
          "code" : "0202"
        }]
      }],
      "code" : {
        "coding" : [{
          "system" : "http://loinc.org",
          "code" : "711-2"
        }]
      },
      "subject" : {
        "identifier" : {
          "system" : "https://fhir.saude.go.gov.br/sid/cpf",
          "value" : "01234567891"
        }
      },
      "issued" : "2024-08-02T11:41:00-03:00",
      "performer" : [{
        "id" : "laboratorio",
        "identifier" : {
          "system" : "https://fhir.saude.go.gov.br/sid/cnes",
          "value" : "2337991"
        }
      },
      {
        "id" : "responsavelTecnico",
        "extension" : [{
          "extension" : [{
            "url" : "conselhoProfissional",
            "valueCode" : "69"
          },
          {
            "url" : "regiao",
            "valueCode" : "52"
          },
          {
            "url" : "inscricao",
            "valueString" : "1234"
          }],
          "url" : "https://fhir.saude.go.gov.br/r4/core/StructureDefinition/conselho-profissional"
        }],
        "identifier" : {
          "system" : "https://fhir.saude.go.gov.br/sid/cpf",
          "value" : "12345678900"
        }
      },
      {
        "id" : "responsavelResultado",
        "extension" : [{
          "extension" : [{
            "url" : "conselhoProfissional",
            "valueCode" : "69"
          },
          {
            "url" : "regiao",
            "valueCode" : "52"
          },
          {
            "url" : "inscricao",
            "valueString" : "1234"
          }],
          "url" : "https://fhir.saude.go.gov.br/r4/core/StructureDefinition/conselho-profissional"
        }],
        "identifier" : {
          "system" : "https://fhir.saude.go.gov.br/sid/cpf",
          "value" : "00011111100"
        }
      }],
      "valueQuantity" : {
        "value" : 237,
        "system" : "http://unitsofmeasure.org",
        "code" : "/uL"
      },
      "method" : {
        "text" : "Automatizado – Cell-Dyn Ruby, Abbott e Microscopia"
      },
      "specimen" : {
        "reference" : "#amostra"
      },
      "referenceRange" : [{
        "low" : {
          "value" : 35,
          "system" : "http://unitsofmeasure.org",
          "code" : "/uL"
        },
        "high" : {
          "value" : 500,
          "system" : "http://unitsofmeasure.org",
          "code" : "/uL"
        },
        "type" : {
          "coding" : [{
            "system" : "http://terminology.hl7.org/CodeSystem/referencerange-meaning",
            "code" : "normal"
          }]
        }
      }]
    }
  },
  {
    "fullUrl" : "urn:uuid:320dd8de-82d7-461f-8ea5-a30dd4767fc5",
    "resource" : {
      "resourceType" : "Observation",
      "id" : "basofilos",
      "meta" : {
        "profile" : ["https://fhir.saude.go.gov.br/r4/core/StructureDefinition/exame-simples"]
      },
      "contained" : [{
        "resourceType" : "Specimen",
        "id" : "amostra",
        "type" : {
          "coding" : [{
            "system" : "http://terminology.hl7.org/CodeSystem/v2-0487",
            "code" : "BLD"
          }]
        },
        "collection" : {
          "collectedDateTime" : "2024-07-24T10:00:00-03:00"
        }
      }],
      "status" : "final",
      "category" : [{
        "coding" : [{
          "system" : "http://www.saude.gov.br/fhir/r4/CodeSystem/BRSubgrupoTabelaSUS",
          "code" : "0202"
        }]
      }],
      "code" : {
        "coding" : [{
          "system" : "http://loinc.org",
          "code" : "704-7"
        }]
      },
      "subject" : {
        "identifier" : {
          "system" : "https://fhir.saude.go.gov.br/sid/cpf",
          "value" : "01234567891"
        }
      },
      "issued" : "2024-08-02T11:41:00-03:00",
      "performer" : [{
        "id" : "laboratorio",
        "identifier" : {
          "system" : "https://fhir.saude.go.gov.br/sid/cnes",
          "value" : "2337991"
        }
      },
      {
        "id" : "responsavelTecnico",
        "extension" : [{
          "extension" : [{
            "url" : "conselhoProfissional",
            "valueCode" : "69"
          },
          {
            "url" : "regiao",
            "valueCode" : "52"
          },
          {
            "url" : "inscricao",
            "valueString" : "1234"
          }],
          "url" : "https://fhir.saude.go.gov.br/r4/core/StructureDefinition/conselho-profissional"
        }],
        "identifier" : {
          "system" : "https://fhir.saude.go.gov.br/sid/cpf",
          "value" : "12345678900"
        }
      },
      {
        "id" : "responsavelResultado",
        "extension" : [{
          "extension" : [{
            "url" : "conselhoProfissional",
            "valueCode" : "69"
          },
          {
            "url" : "regiao",
            "valueCode" : "52"
          },
          {
            "url" : "inscricao",
            "valueString" : "1234"
          }],
          "url" : "https://fhir.saude.go.gov.br/r4/core/StructureDefinition/conselho-profissional"
        }],
        "identifier" : {
          "system" : "https://fhir.saude.go.gov.br/sid/cpf",
          "value" : "00011111100"
        }
      }],
      "valueQuantity" : {
        "value" : 59,
        "system" : "http://unitsofmeasure.org",
        "code" : "/uL"
      },
      "method" : {
        "text" : "Automatizado – Cell-Dyn Ruby, Abbott e Microscopia"
      },
      "specimen" : {
        "reference" : "#amostra"
      },
      "referenceRange" : [{
        "low" : {
          "value" : 0,
          "system" : "http://unitsofmeasure.org",
          "code" : "/uL"
        },
        "high" : {
          "value" : 100,
          "system" : "http://unitsofmeasure.org",
          "code" : "/uL"
        },
        "type" : {
          "coding" : [{
            "system" : "http://terminology.hl7.org/CodeSystem/referencerange-meaning",
            "code" : "normal"
          }]
        }
      }]
    }
  },
  {
    "fullUrl" : "urn:uuid:6218953c-6e54-4fb6-9ac4-abcc69fbf183",
    "resource" : {
      "resourceType" : "Observation",
      "id" : "linfocitos",
      "meta" : {
        "profile" : ["https://fhir.saude.go.gov.br/r4/core/StructureDefinition/exame-simples"]
      },
      "contained" : [{
        "resourceType" : "Specimen",
        "id" : "amostra",
        "type" : {
          "coding" : [{
            "system" : "http://terminology.hl7.org/CodeSystem/v2-0487",
            "code" : "BLD"
          }]
        },
        "collection" : {
          "collectedDateTime" : "2024-07-24T10:00:00-03:00"
        }
      }],
      "status" : "final",
      "category" : [{
        "coding" : [{
          "system" : "http://www.saude.gov.br/fhir/r4/CodeSystem/BRSubgrupoTabelaSUS",
          "code" : "0202"
        }]
      }],
      "code" : {
        "coding" : [{
          "system" : "http://loinc.org",
          "code" : "731-0"
        }]
      },
      "subject" : {
        "identifier" : {
          "system" : "https://fhir.saude.go.gov.br/sid/cpf",
          "value" : "01234567891"
        }
      },
      "issued" : "2024-08-02T11:41:00-03:00",
      "performer" : [{
        "id" : "laboratorio",
        "identifier" : {
          "system" : "https://fhir.saude.go.gov.br/sid/cnes",
          "value" : "2337991"
        }
      },
      {
        "id" : "responsavelTecnico",
        "extension" : [{
          "extension" : [{
            "url" : "conselhoProfissional",
            "valueCode" : "69"
          },
          {
            "url" : "regiao",
            "valueCode" : "52"
          },
          {
            "url" : "inscricao",
            "valueString" : "1234"
          }],
          "url" : "https://fhir.saude.go.gov.br/r4/core/StructureDefinition/conselho-profissional"
        }],
        "identifier" : {
          "system" : "https://fhir.saude.go.gov.br/sid/cpf",
          "value" : "12345678900"
        }
      },
      {
        "id" : "responsavelResultado",
        "extension" : [{
          "extension" : [{
            "url" : "conselhoProfissional",
            "valueCode" : "69"
          },
          {
            "url" : "regiao",
            "valueCode" : "52"
          },
          {
            "url" : "inscricao",
            "valueString" : "1234"
          }],
          "url" : "https://fhir.saude.go.gov.br/r4/core/StructureDefinition/conselho-profissional"
        }],
        "identifier" : {
          "system" : "https://fhir.saude.go.gov.br/sid/cpf",
          "value" : "00011111100"
        }
      }],
      "valueQuantity" : {
        "value" : 1065,
        "system" : "http://unitsofmeasure.org",
        "code" : "/uL"
      },
      "method" : {
        "text" : "Automatizado – Cell-Dyn Ruby, Abbott e Microscopia"
      },
      "specimen" : {
        "reference" : "#amostra"
      },
      "referenceRange" : [{
        "low" : {
          "value" : 800,
          "system" : "http://unitsofmeasure.org",
          "code" : "/uL"
        },
        "high" : {
          "value" : 4000,
          "system" : "http://unitsofmeasure.org",
          "code" : "/uL"
        },
        "type" : {
          "coding" : [{
            "system" : "http://terminology.hl7.org/CodeSystem/referencerange-meaning",
            "code" : "normal"
          }]
        }
      }]
    }
  },
  {
    "fullUrl" : "urn:uuid:80bcc7d9-d0b6-41a0-a77a-9a0257f499f8",
    "resource" : {
      "resourceType" : "Observation",
      "id" : "linfocitosatipicos",
      "meta" : {
        "profile" : ["https://fhir.saude.go.gov.br/r4/core/StructureDefinition/exame-simples"]
      },
      "contained" : [{
        "resourceType" : "Specimen",
        "id" : "amostra",
        "type" : {
          "coding" : [{
            "system" : "http://terminology.hl7.org/CodeSystem/v2-0487",
            "code" : "BLD"
          }]
        },
        "collection" : {
          "collectedDateTime" : "2024-07-24T10:00:00-03:00"
        }
      }],
      "status" : "final",
      "category" : [{
        "coding" : [{
          "system" : "http://www.saude.gov.br/fhir/r4/CodeSystem/BRSubgrupoTabelaSUS",
          "code" : "0202"
        }]
      }],
      "code" : {
        "coding" : [{
          "system" : "http://loinc.org",
          "code" : "29262-3"
        }]
      },
      "subject" : {
        "identifier" : {
          "system" : "https://fhir.saude.go.gov.br/sid/cpf",
          "value" : "01234567891"
        }
      },
      "issued" : "2024-08-02T11:41:00-03:00",
      "performer" : [{
        "id" : "laboratorio",
        "identifier" : {
          "system" : "https://fhir.saude.go.gov.br/sid/cnes",
          "value" : "2337991"
        }
      },
      {
        "id" : "responsavelTecnico",
        "extension" : [{
          "extension" : [{
            "url" : "conselhoProfissional",
            "valueCode" : "69"
          },
          {
            "url" : "regiao",
            "valueCode" : "52"
          },
          {
            "url" : "inscricao",
            "valueString" : "1234"
          }],
          "url" : "https://fhir.saude.go.gov.br/r4/core/StructureDefinition/conselho-profissional"
        }],
        "identifier" : {
          "system" : "https://fhir.saude.go.gov.br/sid/cpf",
          "value" : "12345678900"
        }
      },
      {
        "id" : "responsavelResultado",
        "extension" : [{
          "extension" : [{
            "url" : "conselhoProfissional",
            "valueCode" : "69"
          },
          {
            "url" : "regiao",
            "valueCode" : "52"
          },
          {
            "url" : "inscricao",
            "valueString" : "1234"
          }],
          "url" : "https://fhir.saude.go.gov.br/r4/core/StructureDefinition/conselho-profissional"
        }],
        "identifier" : {
          "system" : "https://fhir.saude.go.gov.br/sid/cpf",
          "value" : "00011111100"
        }
      }],
      "valueQuantity" : {
        "value" : 0,
        "system" : "http://unitsofmeasure.org",
        "code" : "/uL"
      },
      "method" : {
        "text" : "Automatizado - Cell-Dyn Ruby, Abbott e Microscopia"
      },
      "specimen" : {
        "reference" : "#amostra"
      },
      "referenceRange" : [{
        "low" : {
          "value" : 0,
          "system" : "http://unitsofmeasure.org",
          "code" : "/uL"
        },
        "high" : {
          "value" : 0,
          "system" : "http://unitsofmeasure.org",
          "code" : "/uL"
        },
        "type" : {
          "coding" : [{
            "system" : "http://terminology.hl7.org/CodeSystem/referencerange-meaning",
            "code" : "normal"
          }]
        }
      }]
    }
  },
  {
    "fullUrl" : "urn:uuid:8295d77e-476a-4a8d-978b-4d6dd40b11c9",
    "resource" : {
      "resourceType" : "Observation",
      "id" : "prolinfocitos",
      "meta" : {
        "profile" : ["https://fhir.saude.go.gov.br/r4/core/StructureDefinition/exame-simples"]
      },
      "contained" : [{
        "resourceType" : "Specimen",
        "id" : "amostra",
        "type" : {
          "coding" : [{
            "system" : "http://terminology.hl7.org/CodeSystem/v2-0487",
            "code" : "BLD"
          }]
        },
        "collection" : {
          "collectedDateTime" : "2024-07-24T10:00:00-03:00"
        }
      }],
      "status" : "final",
      "category" : [{
        "coding" : [{
          "system" : "http://www.saude.gov.br/fhir/r4/CodeSystem/BRSubgrupoTabelaSUS",
          "code" : "0202"
        }]
      }],
      "code" : {
        "coding" : [{
          "system" : "http://loinc.org",
          "code" : "6863-5"
        }]
      },
      "subject" : {
        "identifier" : {
          "system" : "https://fhir.saude.go.gov.br/sid/cpf",
          "value" : "01234567891"
        }
      },
      "issued" : "2024-08-02T11:41:00-03:00",
      "performer" : [{
        "id" : "laboratorio",
        "identifier" : {
          "system" : "https://fhir.saude.go.gov.br/sid/cnes",
          "value" : "2337991"
        }
      },
      {
        "id" : "responsavelTecnico",
        "extension" : [{
          "extension" : [{
            "url" : "conselhoProfissional",
            "valueCode" : "69"
          },
          {
            "url" : "regiao",
            "valueCode" : "52"
          },
          {
            "url" : "inscricao",
            "valueString" : "1234"
          }],
          "url" : "https://fhir.saude.go.gov.br/r4/core/StructureDefinition/conselho-profissional"
        }],
        "identifier" : {
          "system" : "https://fhir.saude.go.gov.br/sid/cpf",
          "value" : "12345678900"
        }
      },
      {
        "id" : "responsavelResultado",
        "extension" : [{
          "extension" : [{
            "url" : "conselhoProfissional",
            "valueCode" : "69"
          },
          {
            "url" : "regiao",
            "valueCode" : "52"
          },
          {
            "url" : "inscricao",
            "valueString" : "1234"
          }],
          "url" : "https://fhir.saude.go.gov.br/r4/core/StructureDefinition/conselho-profissional"
        }],
        "identifier" : {
          "system" : "https://fhir.saude.go.gov.br/sid/cpf",
          "value" : "00011111100"
        }
      }],
      "valueQuantity" : {
        "value" : 0,
        "system" : "http://unitsofmeasure.org",
        "code" : "/uL"
      },
      "method" : {
        "text" : "Automatizado – Cell-Dyn Ruby, Abbott e Microscopia"
      },
      "specimen" : {
        "reference" : "#amostra"
      },
      "referenceRange" : [{
        "low" : {
          "value" : 0,
          "system" : "http://unitsofmeasure.org",
          "code" : "/uL"
        },
        "high" : {
          "value" : 0,
          "system" : "http://unitsofmeasure.org",
          "code" : "/uL"
        },
        "type" : {
          "coding" : [{
            "system" : "http://terminology.hl7.org/CodeSystem/referencerange-meaning",
            "code" : "normal"
          }]
        }
      }]
    }
  },
  {
    "fullUrl" : "urn:uuid:e2466318-f770-4235-8ef2-c7a54a6ae75c",
    "resource" : {
      "resourceType" : "Observation",
      "id" : "blastos",
      "meta" : {
        "profile" : ["https://fhir.saude.go.gov.br/r4/core/StructureDefinition/exame-simples"]
      },
      "contained" : [{
        "resourceType" : "Specimen",
        "id" : "amostra",
        "type" : {
          "coding" : [{
            "system" : "http://terminology.hl7.org/CodeSystem/v2-0487",
            "code" : "BLD"
          }]
        },
        "collection" : {
          "collectedDateTime" : "2024-07-24T10:00:00-03:00"
        }
      }],
      "status" : "final",
      "category" : [{
        "coding" : [{
          "system" : "http://www.saude.gov.br/fhir/r4/CodeSystem/BRSubgrupoTabelaSUS",
          "code" : "0202"
        }]
      }],
      "code" : {
        "coding" : [{
          "system" : "http://loinc.org",
          "code" : "708-8"
        }]
      },
      "subject" : {
        "identifier" : {
          "system" : "https://fhir.saude.go.gov.br/sid/cpf",
          "value" : "01234567891"
        }
      },
      "issued" : "2024-08-02T11:41:00-03:00",
      "performer" : [{
        "id" : "laboratorio",
        "identifier" : {
          "system" : "https://fhir.saude.go.gov.br/sid/cnes",
          "value" : "2337991"
        }
      },
      {
        "id" : "responsavelTecnico",
        "extension" : [{
          "extension" : [{
            "url" : "conselhoProfissional",
            "valueCode" : "69"
          },
          {
            "url" : "regiao",
            "valueCode" : "52"
          },
          {
            "url" : "inscricao",
            "valueString" : "1234"
          }],
          "url" : "https://fhir.saude.go.gov.br/r4/core/StructureDefinition/conselho-profissional"
        }],
        "identifier" : {
          "system" : "https://fhir.saude.go.gov.br/sid/cpf",
          "value" : "12345678900"
        }
      },
      {
        "id" : "responsavelResultado",
        "extension" : [{
          "extension" : [{
            "url" : "conselhoProfissional",
            "valueCode" : "69"
          },
          {
            "url" : "regiao",
            "valueCode" : "52"
          },
          {
            "url" : "inscricao",
            "valueString" : "1234"
          }],
          "url" : "https://fhir.saude.go.gov.br/r4/core/StructureDefinition/conselho-profissional"
        }],
        "identifier" : {
          "system" : "https://fhir.saude.go.gov.br/sid/cpf",
          "value" : "00011111100"
        }
      }],
      "valueQuantity" : {
        "value" : 0,
        "system" : "http://unitsofmeasure.org",
        "code" : "/uL"
      },
      "method" : {
        "text" : "Automatizado – Cell-Dyn Ruby, Abbott e Microscopia"
      },
      "specimen" : {
        "reference" : "#amostra"
      },
      "referenceRange" : [{
        "low" : {
          "value" : 0,
          "system" : "http://unitsofmeasure.org",
          "code" : "/uL"
        },
        "high" : {
          "value" : 0,
          "system" : "http://unitsofmeasure.org",
          "code" : "/uL"
        },
        "type" : {
          "coding" : [{
            "system" : "http://terminology.hl7.org/CodeSystem/referencerange-meaning",
            "code" : "normal"
          }]
        }
      }]
    }
  },
  {
    "fullUrl" : "urn:uuid:da66073e-1a58-4f31-b99a-d35ffb667eef",
    "resource" : {
      "resourceType" : "Observation",
      "id" : "plaquetas",
      "meta" : {
        "profile" : ["https://fhir.saude.go.gov.br/r4/core/StructureDefinition/exame-simples"]
      },
      "contained" : [{
        "resourceType" : "Specimen",
        "id" : "amostra",
        "type" : {
          "coding" : [{
            "system" : "http://terminology.hl7.org/CodeSystem/v2-0487",
            "code" : "BLD"
          }]
        },
        "collection" : {
          "collectedDateTime" : "2024-07-24T10:00:00-03:00"
        }
      }],
      "status" : "final",
      "category" : [{
        "coding" : [{
          "system" : "http://www.saude.gov.br/fhir/r4/CodeSystem/BRSubgrupoTabelaSUS",
          "code" : "0202"
        }]
      }],
      "code" : {
        "coding" : [{
          "system" : "http://loinc.org",
          "code" : "777-3"
        }]
      },
      "subject" : {
        "identifier" : {
          "system" : "https://fhir.saude.go.gov.br/sid/cpf",
          "value" : "01234567891"
        }
      },
      "issued" : "2024-08-02T11:41:00-03:00",
      "performer" : [{
        "id" : "laboratorio",
        "identifier" : {
          "system" : "https://fhir.saude.go.gov.br/sid/cnes",
          "value" : "2337991"
        }
      },
      {
        "id" : "responsavelTecnico",
        "extension" : [{
          "extension" : [{
            "url" : "conselhoProfissional",
            "valueCode" : "69"
          },
          {
            "url" : "regiao",
            "valueCode" : "52"
          },
          {
            "url" : "inscricao",
            "valueString" : "1234"
          }],
          "url" : "https://fhir.saude.go.gov.br/r4/core/StructureDefinition/conselho-profissional"
        }],
        "identifier" : {
          "system" : "https://fhir.saude.go.gov.br/sid/cpf",
          "value" : "12345678900"
        }
      },
      {
        "id" : "responsavelResultado",
        "extension" : [{
          "extension" : [{
            "url" : "conselhoProfissional",
            "valueCode" : "69"
          },
          {
            "url" : "regiao",
            "valueCode" : "52"
          },
          {
            "url" : "inscricao",
            "valueString" : "1234"
          }],
          "url" : "https://fhir.saude.go.gov.br/r4/core/StructureDefinition/conselho-profissional"
        }],
        "identifier" : {
          "system" : "https://fhir.saude.go.gov.br/sid/cpf",
          "value" : "00011111100"
        }
      }],
      "valueQuantity" : {
        "value" : 141200,
        "system" : "http://unitsofmeasure.org",
        "code" : "/uL"
      },
      "method" : {
        "text" : "Automatizado – Cell-Dyn Ruby, Abbott e Microscopia"
      },
      "specimen" : {
        "reference" : "#amostra"
      },
      "referenceRange" : [{
        "low" : {
          "value" : 150000,
          "system" : "http://unitsofmeasure.org",
          "code" : "/uL"
        },
        "high" : {
          "value" : 500000,
          "system" : "http://unitsofmeasure.org",
          "code" : "/uL"
        },
        "type" : {
          "coding" : [{
            "system" : "http://terminology.hl7.org/CodeSystem/referencerange-meaning",
            "code" : "normal"
          }]
        }
      }]
    }
  },
  {
    "fullUrl" : "urn:uuid:aef388a5-33be-4c74-ba82-a4a27b180648",
    "resource" : {
      "resourceType" : "Observation",
      "id" : "plaquetocrito",
      "meta" : {
        "profile" : ["https://fhir.saude.go.gov.br/r4/core/StructureDefinition/exame-simples"]
      },
      "contained" : [{
        "resourceType" : "Specimen",
        "id" : "amostra",
        "type" : {
          "coding" : [{
            "system" : "http://terminology.hl7.org/CodeSystem/v2-0487",
            "code" : "BLD"
          }]
        },
        "collection" : {
          "collectedDateTime" : "2024-07-24T10:00:00-03:00"
        }
      }],
      "status" : "final",
      "category" : [{
        "coding" : [{
          "system" : "http://www.saude.gov.br/fhir/r4/CodeSystem/BRSubgrupoTabelaSUS",
          "code" : "0202"
        }]
      }],
      "code" : {
        "coding" : [{
          "system" : "http://loinc.org",
          "code" : "51637-7"
        }]
      },
      "subject" : {
        "identifier" : {
          "system" : "https://fhir.saude.go.gov.br/sid/cpf",
          "value" : "01234567891"
        }
      },
      "issued" : "2024-08-02T11:41:00-03:00",
      "performer" : [{
        "id" : "laboratorio",
        "identifier" : {
          "system" : "https://fhir.saude.go.gov.br/sid/cnes",
          "value" : "2337991"
        }
      },
      {
        "id" : "responsavelTecnico",
        "extension" : [{
          "extension" : [{
            "url" : "conselhoProfissional",
            "valueCode" : "69"
          },
          {
            "url" : "regiao",
            "valueCode" : "52"
          },
          {
            "url" : "inscricao",
            "valueString" : "1234"
          }],
          "url" : "https://fhir.saude.go.gov.br/r4/core/StructureDefinition/conselho-profissional"
        }],
        "identifier" : {
          "system" : "https://fhir.saude.go.gov.br/sid/cpf",
          "value" : "12345678900"
        }
      },
      {
        "id" : "responsavelResultado",
        "extension" : [{
          "extension" : [{
            "url" : "conselhoProfissional",
            "valueCode" : "69"
          },
          {
            "url" : "regiao",
            "valueCode" : "52"
          },
          {
            "url" : "inscricao",
            "valueString" : "1234"
          }],
          "url" : "https://fhir.saude.go.gov.br/r4/core/StructureDefinition/conselho-profissional"
        }],
        "identifier" : {
          "system" : "https://fhir.saude.go.gov.br/sid/cpf",
          "value" : "00011111100"
        }
      }],
      "valueQuantity" : {
        "value" : 0.121,
        "system" : "http://unitsofmeasure.org",
        "code" : "%"
      },
      "method" : {
        "text" : "Automatizado – Cell-Dyn Ruby, Abbott e Microscopia"
      },
      "specimen" : {
        "reference" : "#amostra"
      },
      "referenceRange" : [{
        "low" : {
          "value" : 0.1,
          "system" : "http://unitsofmeasure.org",
          "code" : "%"
        },
        "high" : {
          "value" : 0.5,
          "system" : "http://unitsofmeasure.org",
          "code" : "%"
        },
        "type" : {
          "coding" : [{
            "system" : "http://terminology.hl7.org/CodeSystem/referencerange-meaning",
            "code" : "normal"
          }]
        }
      }]
    }
  },
  {
    "fullUrl" : "urn:uuid:9d979d2b-3bc5-4c12-83ea-786bb48586d3",
    "resource" : {
      "resourceType" : "Observation",
      "id" : "vpm",
      "meta" : {
        "profile" : ["https://fhir.saude.go.gov.br/r4/core/StructureDefinition/exame-simples"]
      },
      "contained" : [{
        "resourceType" : "Specimen",
        "id" : "amostra",
        "type" : {
          "coding" : [{
            "system" : "http://terminology.hl7.org/CodeSystem/v2-0487",
            "code" : "BLD"
          }]
        },
        "collection" : {
          "collectedDateTime" : "2024-07-24T10:00:00-03:00"
        }
      }],
      "status" : "final",
      "category" : [{
        "coding" : [{
          "system" : "http://www.saude.gov.br/fhir/r4/CodeSystem/BRSubgrupoTabelaSUS",
          "code" : "0202"
        }]
      }],
      "code" : {
        "coding" : [{
          "system" : "http://loinc.org",
          "code" : "32623-1"
        }]
      },
      "subject" : {
        "identifier" : {
          "system" : "https://fhir.saude.go.gov.br/sid/cpf",
          "value" : "01234567891"
        }
      },
      "issued" : "2024-08-02T11:41:00-03:00",
      "performer" : [{
        "id" : "laboratorio",
        "identifier" : {
          "system" : "https://fhir.saude.go.gov.br/sid/cnes",
          "value" : "2337991"
        }
      },
      {
        "id" : "responsavelTecnico",
        "extension" : [{
          "extension" : [{
            "url" : "conselhoProfissional",
            "valueCode" : "69"
          },
          {
            "url" : "regiao",
            "valueCode" : "52"
          },
          {
            "url" : "inscricao",
            "valueString" : "1234"
          }],
          "url" : "https://fhir.saude.go.gov.br/r4/core/StructureDefinition/conselho-profissional"
        }],
        "identifier" : {
          "system" : "https://fhir.saude.go.gov.br/sid/cpf",
          "value" : "12345678900"
        }
      },
      {
        "id" : "responsavelResultado",
        "extension" : [{
          "extension" : [{
            "url" : "conselhoProfissional",
            "valueCode" : "69"
          },
          {
            "url" : "regiao",
            "valueCode" : "52"
          },
          {
            "url" : "inscricao",
            "valueString" : "1234"
          }],
          "url" : "https://fhir.saude.go.gov.br/r4/core/StructureDefinition/conselho-profissional"
        }],
        "identifier" : {
          "system" : "https://fhir.saude.go.gov.br/sid/cpf",
          "value" : "00011111100"
        }
      }],
      "valueQuantity" : {
        "value" : 8.56,
        "system" : "http://unitsofmeasure.org",
        "code" : "fL"
      },
      "method" : {
        "text" : "Automatizado – Cell-Dyn Ruby, Abbott e Microscopia"
      },
      "specimen" : {
        "reference" : "#amostra"
      },
      "referenceRange" : [{
        "low" : {
          "value" : 6,
          "system" : "http://unitsofmeasure.org",
          "code" : "fL"
        },
        "high" : {
          "value" : 10,
          "system" : "http://unitsofmeasure.org",
          "code" : "fL"
        },
        "type" : {
          "coding" : [{
            "system" : "http://terminology.hl7.org/CodeSystem/referencerange-meaning",
            "code" : "normal"
          }]
        }
      }]
    }
  },
  {
    "fullUrl" : "urn:uuid:92dfeb37-1abb-430b-8288-74feff6e9c51",
    "resource" : {
      "resourceType" : "Observation",
      "id" : "pdw",
      "meta" : {
        "profile" : ["https://fhir.saude.go.gov.br/r4/core/StructureDefinition/exame-simples"]
      },
      "contained" : [{
        "resourceType" : "Specimen",
        "id" : "amostra",
        "type" : {
          "coding" : [{
            "system" : "http://terminology.hl7.org/CodeSystem/v2-0487",
            "code" : "BLD"
          }]
        },
        "collection" : {
          "collectedDateTime" : "2024-07-24T10:00:00-03:00"
        }
      }],
      "status" : "final",
      "category" : [{
        "coding" : [{
          "system" : "http://www.saude.gov.br/fhir/r4/CodeSystem/BRSubgrupoTabelaSUS",
          "code" : "0202"
        }]
      }],
      "code" : {
        "coding" : [{
          "system" : "http://loinc.org",
          "code" : "32207-3"
        }]
      },
      "subject" : {
        "identifier" : {
          "system" : "https://fhir.saude.go.gov.br/sid/cpf",
          "value" : "01234567891"
        }
      },
      "issued" : "2024-08-02T11:41:00-03:00",
      "performer" : [{
        "id" : "laboratorio",
        "identifier" : {
          "system" : "https://fhir.saude.go.gov.br/sid/cnes",
          "value" : "2337991"
        }
      },
      {
        "id" : "responsavelTecnico",
        "extension" : [{
          "extension" : [{
            "url" : "conselhoProfissional",
            "valueCode" : "69"
          },
          {
            "url" : "regiao",
            "valueCode" : "52"
          },
          {
            "url" : "inscricao",
            "valueString" : "1234"
          }],
          "url" : "https://fhir.saude.go.gov.br/r4/core/StructureDefinition/conselho-profissional"
        }],
        "identifier" : {
          "system" : "https://fhir.saude.go.gov.br/sid/cpf",
          "value" : "12345678900"
        }
      },
      {
        "id" : "responsavelResultado",
        "extension" : [{
          "extension" : [{
            "url" : "conselhoProfissional",
            "valueCode" : "69"
          },
          {
            "url" : "regiao",
            "valueCode" : "52"
          },
          {
            "url" : "inscricao",
            "valueString" : "1234"
          }],
          "url" : "https://fhir.saude.go.gov.br/r4/core/StructureDefinition/conselho-profissional"
        }],
        "identifier" : {
          "system" : "https://fhir.saude.go.gov.br/sid/cpf",
          "value" : "00011111100"
        }
      }],
      "valueQuantity" : {
        "value" : 20.88,
        "system" : "http://unitsofmeasure.org",
        "code" : "%"
      },
      "method" : {
        "text" : "Automatizado – Cell-Dyn Ruby, Abbott e Microscopia"
      },
      "specimen" : {
        "reference" : "#amostra"
      },
      "referenceRange" : [{
        "low" : {
          "value" : 10,
          "system" : "http://unitsofmeasure.org",
          "code" : "%"
        },
        "high" : {
          "value" : 18,
          "system" : "http://unitsofmeasure.org",
          "code" : "%"
        },
        "type" : {
          "coding" : [{
            "system" : "http://terminology.hl7.org/CodeSystem/referencerange-meaning",
            "code" : "normal"
          }]
        }
      }]
    }
  }]
}